File: experimental_xrd/CsPbBr3.xy
5	22	26.5
5.04	27	26.32
5.08	23	26.16
5.12	28	26.01
5.16	38	25.87
5.2	24	25.74
5.24	29	25.62
5.28	38	25.51
5.32	27	25.4
5.36	23	25.29
5.4	30	25.19
5.44	33	25.08
5.48	23	24.98
5.52	21	24.87
5.56	20	24.77
5.6	17	24.66
5.64	23	24.55
5.68	30	24.44
5.72	29	24.33
5.76	22	24.21
5.8	19	24.1
5.84	26	23.97
5.88	23	23.85
5.92	23	23.72
5.96	22	23.59
6	28	23.46
6.04	27	23.33
6.08	32	23.19
6.12	20	23.05
6.16	21	22.91
6.2	25	22.77
6.24	21	22.62
6.28	24	22.48
6.32	20	22.33
6.36	21	22.18
6.4	23	22.03
6.44	23	21.88
6.48	22	21.73
6.52	29	21.58
6.56	27	21.43
6.6	23	21.27
6.64	21	21.12
6.68	16	20.97
6.72	15	20.82
6.76	18	20.67
6.8	20	20.51
6.84	24	20.36
6.88	21	20.21
6.92	20	20.07
6.96	28	19.92
7	19	19.77
7.04	16	19.63
7.08	17	19.48
7.12	14	19.34
7.16	19	19.2
7.2	29	19.06
7.24	24	18.93
7.28	14	18.79
7.32	24	18.66
7.36	15	18.53
7.4	21	18.4
7.44	13	18.27
7.48	13	18.14
7.52	18	18.02
7.56	13	17.9
7.6	24	17.78
7.64	10	17.66
7.68	20	17.54
7.72	18	17.43
7.76	14	17.32
7.8	13	17.21
7.84	16	17.1
7.88	21	17
7.92	21	16.89
7.96	17	16.79
8	17	16.69
8.04	15	16.6
8.08	12	16.5
8.12	15	16.41
8.16	14	16.32
8.2	18	16.23
8.24	22	16.14
8.28	19	16.06
8.32	16	15.98
8.36	17	15.9
8.4	19	15.82
8.44	18	15.74
8.48	16	15.66
8.52	19	15.59
8.56	10	15.52
8.6	10	15.45
8.64	24	15.38
8.68	16	15.31
8.72	17	15.24
8.76	16	15.18
8.8	17	15.12
8.84	16	15.05
8.88	22	14.99
8.92	14	14.94
8.96	16	14.88
9	19	14.82
9.04	14	14.77
9.08	16	14.71
9.12	25	14.66
9.16	17	14.61
9.2	14	14.56
9.24	15	14.51
9.28	14	14.46
9.32	15	14.41
9.36	17	14.37
9.4	16	14.32
9.44	21	14.28
9.48	22	14.23
9.52	16	14.19
9.56	18	14.15
9.6	16	14.11
9.64	15	14.07
9.68	14	14.03
9.72	21	13.99
9.76	18	13.95
9.8	14	13.91
9.84	16	13.87
9.88	19	13.84
9.92	9	13.8
9.96	7	13.76
10	17	13.73
10.04	9	13.69
10.08	18	13.66
10.12	18	13.62
10.16	17	13.59
10.2	10	13.55
10.24	14	13.52
10.28	11	13.49
10.32	11	13.45
10.36	22	13.42
10.4	14	13.39
10.44	14	13.35
10.48	21	13.32
10.52	13	13.29
10.56	17	13.26
10.6	16	13.23
10.64	14	13.19
10.68	11	13.16
10.72	20	13.13
10.76	18	13.1
10.8	14	13.07
10.84	12	13.03
10.88	6	13
10.92	12	12.97
10.96	12	12.94
11	15	12.91
11.04	12	12.88
11.08	14	12.84
11.12	15	12.81
11.16	14	12.78
11.2	12	12.75
11.24	16	12.71
11.28	15	12.68
11.32	6	12.65
11.36	12	12.62
11.4	13	12.59
11.44	18	12.55
11.48	21	12.52
11.52	23	12.49
11.56	28	12.45
11.6	26	12.42
11.64	14	12.39
11.68	26	12.35
11.72	23	12.32
11.76	11	12.29
11.8	13	12.25
11.84	17	12.22
11.88	9	12.18
11.92	12	12.15
11.96	16	12.11
12	15	12.08
12.04	17	12.05
12.08	13	12.01
12.12	17	11.97
12.16	9	11.94
12.2	18	11.9
12.24	14	11.87
12.28	10	11.83
12.32	11	11.8
12.36	16	11.76
12.4	14	11.72
12.44	12	11.69
12.48	16	11.65
12.52	16	11.62
12.56	10	11.58
12.6	7	11.54
12.64	9	11.5
12.68	5	11.47
12.72	15	11.43
12.76	9	11.39
12.8	10	11.36
12.84	11	11.32
12.88	14	11.28
12.92	19	11.24
12.96	9	11.2
13	15	11.17
13.04	8	11.13
13.08	10	11.09
13.12	16	11.05
13.16	9	11.01
13.2	13	10.98
13.24	10	10.94
13.28	6	10.9
13.32	9	10.86
13.36	15	10.82
13.4	9	10.78
13.44	9	10.74
13.48	9	10.71
13.52	5	10.67
13.56	14	10.63
13.6	13	10.59
13.64	15	10.55
13.68	12	10.51
13.72	16	10.47
13.76	15	10.43
13.8	11	10.4
13.84	16	10.36
13.88	13	10.32
13.92	15	10.28
13.96	8	10.24
14	5	10.2
14.04	7	10.16
14.08	8	10.12
14.12	14	10.09
14.16	12	10.05
14.2	10	10.01
14.24	8	9.97
14.28	12	9.93
14.32	8	9.89
14.36	17	9.86
14.4	11	9.82
14.44	9	9.78
14.48	23	9.74
14.52	11	9.71
14.56	18	9.67
14.6	10	9.63
14.64	12	9.59
14.68	17	9.56
14.72	19	9.52
14.76	36	9.48
14.8	37	9.45
14.84	46	9.41
14.88	60	9.37
14.92	65	9.34
14.96	75	9.3
15	98	9.26
15.04	111	9.23
15.08	112	9.19
15.12	104	9.16
15.16	117	9.12
15.2	118	9.09
15.24	95	9.05
15.28	77	9.02
15.32	31	8.98
15.36	26	8.95
15.4	11	8.91
15.44	10	8.88
15.48	13	8.85
15.52	8	8.81
15.56	18	8.78
15.6	14	8.75
15.64	10	8.71
15.68	8	8.68
15.72	11	8.65
15.76	12	8.62
15.8	7	8.59
15.84	12	8.55
15.88	10	8.52
15.92	11	8.49
15.96	10	8.46
16	8	8.43
16.04	14	8.4
16.08	6	8.37
16.12	11	8.34
16.16	6	8.31
16.2	10	8.28
16.24	10	8.25
16.28	10	8.22
16.32	8	8.2
16.36	10	8.17
16.4	12	8.14
16.44	9	8.11
16.48	14	8.08
16.52	5	8.06
16.56	14	8.03
16.6	11	8
16.64	18	7.98
16.68	16	7.95
16.72	5	7.93
16.76	12	7.9
16.8	14	7.88
16.84	8	7.85
16.88	8	7.83
16.92	7	7.8
16.96	15	7.78
17	14	7.76
17.04	10	7.73
17.08	13	7.71
17.12	7	7.69
17.16	13	7.67
17.2	4	7.64
17.24	10	7.62
17.28	10	7.6
17.32	6	7.58
17.36	5	7.56
17.4	14	7.54
17.44	8	7.52
17.48	10	7.5
17.52	8	7.48
17.56	10	7.46
17.6	8	7.44
17.64	10	7.42
17.68	9	7.4
17.72	9	7.39
17.76	8	7.37
17.8	10	7.35
17.84	9	7.33
17.88	10	7.32
17.92	9	7.3
17.96	5	7.29
18	8	7.27
18.04	11	7.25
18.08	7	7.24
18.12	8	7.22
18.16	7	7.21
18.2	7	7.2
18.24	9	7.18
18.28	7	7.17
18.32	8	7.15
18.36	6	7.14
18.4	13	7.13
18.44	4	7.12
18.48	8	7.1
18.52	7	7.09
18.56	9	7.08
18.6	5	7.07
18.64	8	7.06
18.68	19	7.05
18.72	10	7.04
18.76	10	7.03
18.8	16	7.02
18.84	13	7.01
18.88	7	7
18.92	11	6.99
18.96	8	6.98
19	9	6.97
19.04	4	6.96
19.08	8	6.96
19.12	4	6.95
19.16	8	6.94
19.2	11	6.93
19.24	8	6.93
19.28	10	6.92
19.32	6	6.91
19.36	6	6.91
19.4	6	6.9
19.44	6	6.9
19.48	12	6.89
19.52	10	6.89
19.56	9	6.88
19.6	5	6.88
19.64	8	6.87
19.68	13	6.87
19.72	4	6.87
19.76	5	6.86
19.8	8	6.86
19.84	10	6.86
19.88	6	6.85
19.92	7	6.85
19.96	8	6.85
20	8	6.85
20.04	10	6.85
20.08	10	6.84
20.12	9	6.84
20.16	4	6.84
20.2	7	6.84
20.24	8	6.84
20.28	10	6.84
20.32	11	6.84
20.36	9	6.84
20.4	7	6.84
20.44	12	6.84
20.48	17	6.84
20.52	24	6.84
20.56	8	6.84
20.6	10	6.84
20.64	9	6.85
20.68	11	6.85
20.72	10	6.85
20.76	19	6.85
20.8	13	6.85
20.84	14	6.86
20.88	8	6.86
20.92	12	6.86
20.96	19	6.86
21	10	6.87
21.04	15	6.87
21.08	23	6.87
21.12	29	6.88
21.16	36	6.88
21.2	42	6.89
21.24	66	6.89
21.28	87	6.89
21.32	115	6.9
21.36	178	6.9
21.4	289	6.91
21.44	368	6.91
21.48	402	6.92
21.52	352	6.92
21.56	286	6.93
21.6	187	6.93
21.64	145	6.94
21.68	103	6.94
21.72	52	6.95
21.76	38	6.96
21.8	18	6.96
21.84	12	6.97
21.88	13	6.97
21.92	8	6.98
21.96	9	6.99
22	11	6.99
22.04	8	7
22.08	15	7.01
22.12	10	7.02
22.16	14	7.02
22.2	11	7.03
22.24	14	7.04
22.28	9	7.04
22.32	10	7.05
22.36	7	7.06
22.4	16	7.07
22.44	10	7.07
22.48	11	7.08
22.52	17	7.09
22.56	9	7.1
22.6	10	7.11
22.64	12	7.11
22.68	13	7.12
22.72	8	7.13
22.76	11	7.14
22.8	7	7.15
22.84	7	7.16
22.88	12	7.16
22.92	6	7.17
22.96	9	7.18
23	7	7.19
23.04	10	7.2
23.08	7	7.21
23.12	6	7.22
23.16	6	7.23
23.2	11	7.23
23.24	11	7.24
23.28	6	7.25
23.32	9	7.26
23.36	8	7.27
23.4	18	7.28
23.44	8	7.29
23.48	8	7.3
23.52	4	7.31
23.56	8	7.32
23.6	7	7.33
23.64	8	7.34
23.68	11	7.34
23.72	12	7.35
23.76	13	7.36
23.8	7	7.37
23.84	12	7.38
23.88	12	7.39
23.92	16	7.4
23.96	18	7.41
24	26	7.42
24.04	22	7.43
24.08	35	7.44
24.12	36	7.45
24.16	27	7.46
24.2	21	7.47
24.24	20	7.48
24.28	11	7.49
24.32	12	7.49
24.36	13	7.5
24.4	9	7.51
24.44	13	7.52
24.48	9	7.53
24.52	9	7.54
24.56	9	7.55
24.6	11	7.56
24.64	11	7.57
24.68	11	7.58
24.72	9	7.59
24.76	13	7.6
24.8	7	7.61
24.84	9	7.61
24.88	8	7.62
24.92	11	7.63
24.96	8	7.64
25	12	7.65
25.04	12	7.66
25.08	13	7.67
25.12	20	7.68
25.16	19	7.68
25.2	32	7.69
25.24	21	7.7
25.28	24	7.71
25.32	28	7.72
25.36	20	7.73
25.4	26	7.74
25.44	8	7.74
25.48	18	7.75
25.52	8	7.76
25.56	4	7.77
25.6	11	7.78
25.64	12	7.79
25.68	10	7.79
25.72	15	7.8
25.76	14	7.81
25.8	11	7.82
25.84	10	7.82
25.88	8	7.83
25.92	8	7.84
25.96	8	7.85
26	10	7.86
26.04	5	7.86
26.08	10	7.87
26.12	18	7.88
26.16	9	7.88
26.2	12	7.89
26.24	31	7.9
26.28	17	7.91
26.32	36	7.91
26.36	56	7.92
26.4	44	7.93
26.44	45	7.93
26.48	49	7.94
26.52	41	7.95
26.56	21	7.95
26.6	15	7.96
26.64	15	7.96
26.68	12	7.97
26.72	10	7.98
26.76	11	7.98
26.8	10	7.99
26.84	7	7.99
26.88	10	8
26.92	4	8.01
26.96	7	8.01
27	8	8.02
27.04	10	8.02
27.08	13	8.03
27.12	5	8.03
27.16	15	8.04
27.2	10	8.04
27.24	12	8.05
27.28	17	8.05
27.32	16	8.06
27.36	16	8.06
27.4	16	8.07
27.44	17	8.07
27.48	15	8.07
27.52	26	8.08
27.56	19	8.08
27.6	21	8.09
27.64	18	8.09
27.68	18	8.09
27.72	20	8.1
27.76	15	8.1
27.8	12	8.11
27.84	11	8.11
27.88	9	8.11
27.92	10	8.12
27.96	10	8.12
28	12	8.12
28.04	10	8.12
28.08	10	8.13
28.12	5	8.13
28.16	6	8.13
28.2	8	8.13
28.24	12	8.14
28.28	11	8.14
28.32	11	8.14
28.36	17	8.14
28.4	24	8.15
28.44	27	8.15
28.48	42	8.15
28.52	53	8.15
28.56	43	8.15
28.6	34	8.15
28.64	32	8.16
28.68	29	8.16
28.72	27	8.16
28.76	13	8.16
28.8	10	8.16
28.84	8	8.16
28.88	8	8.16
28.92	11	8.16
28.96	12	8.16
29	11	8.16
29.04	16	8.16
29.08	14	8.16
29.12	11	8.16
29.16	12	8.16
29.2	14	8.16
29.24	20	8.16
29.28	16	8.16
29.32	28	8.16
29.36	28	8.16
29.4	27	8.16
29.44	25	8.16
29.48	19	8.16
29.52	21	8.16
29.56	11	8.16
29.6	16	8.16
29.64	18	8.16
29.68	10	8.16
29.72	14	8.15
29.76	10	8.15
29.8	9	8.15
29.84	10	8.15
29.88	17	8.15
29.92	8	8.15
29.96	13	8.14
30	12	8.14
30.04	12	8.14
30.08	12	8.14
30.12	11	8.14
30.16	11	8.13
30.2	29	8.13
30.24	34	8.13
30.28	40	8.13
30.32	52	8.12
30.36	64	8.12
30.4	73	8.12
30.44	70	8.11
30.48	72	8.11
30.52	82	8.11
30.56	162	8.1
30.6	202	8.1
30.64	260	8.1
30.68	246	8.09
30.72	232	8.09
30.76	170	8.09
30.8	133	8.08
30.84	84	8.08
30.88	51	8.07
30.92	28	8.07
30.96	14	8.07
31	20	8.06
31.04	9	8.06
31.08	9	8.05
31.12	11	8.05
31.16	13	8.04
31.2	12	8.04
31.24	21	8.03
31.28	24	8.03
31.32	25	8.02
31.36	14	8.02
31.4	16	8.01
31.44	10	8.01
31.48	13	8
31.52	16	8
31.56	22	7.99
31.6	24	7.99
31.64	25	7.98
31.68	18	7.98
31.72	18	7.97
31.76	19	7.97
31.8	12	7.96
31.84	15	7.95
31.88	21	7.95
31.92	16	7.94
31.96	30	7.94
32	21	7.93
32.04	14	7.92
32.08	12	7.92
32.12	13	7.91
32.16	13	7.91
32.2	6	7.9
32.24	10	7.89
32.28	11	7.89
32.32	7	7.88
32.36	8	7.87
32.4	9	7.87
32.44	10	7.86
32.48	11	7.85
32.52	11	7.85
32.56	12	7.84
32.6	4	7.83
32.64	14	7.83
32.68	6	7.82
32.72	9	7.81
32.76	10	7.8
32.8	8	7.8
32.84	10	7.79
32.88	10	7.78
32.92	8	7.78
32.96	10	7.77
33	9	7.76
33.04	11	7.75
33.08	8	7.75
33.12	7	7.74
33.16	10	7.73
33.2	8	7.72
33.24	16	7.72
33.28	16	7.71
33.32	16	7.7
33.36	21	7.69
33.4	18	7.68
33.44	21	7.68
33.48	19	7.67
33.52	16	7.66
33.56	15	7.65
33.6	18	7.65
33.64	22	7.64
33.68	12	7.63
33.72	13	7.62
33.76	12	7.61
33.8	9	7.61
33.84	9	7.6
33.88	11	7.59
33.92	14	7.58
33.96	11	7.57
34	15	7.56
34.04	29	7.56
34.08	31	7.55
34.12	45	7.54
34.16	48	7.53
34.2	48	7.52
34.24	41	7.51
34.28	64	7.51
34.32	80	7.5
34.36	73	7.49
34.4	64	7.48
34.44	54	7.47
34.48	53	7.46
34.52	34	7.46
34.56	28	7.45
34.6	23	7.44
34.64	11	7.43
34.68	19	7.42
34.72	12	7.41
34.76	11	7.41
34.8	6	7.4
34.84	12	7.39
34.88	7	7.38
34.92	4	7.37
34.96	10	7.36
35	14	7.36
35.04	11	7.35
35.08	12	7.34
35.12	8	7.33
35.16	11	7.32
35.2	14	7.31
35.24	16	7.3
35.28	13	7.3
35.32	11	7.29
35.36	14	7.28
35.4	7	7.27
35.44	21	7.26
35.48	14	7.25
35.52	12	7.25
35.56	11	7.24
35.6	6	7.23
35.64	7	7.22
35.68	8	7.21
35.72	10	7.2
35.76	10	7.2
35.8	8	7.19
35.84	11	7.18
35.88	12	7.17
35.92	7	7.16
35.96	7	7.16
36	7	7.15
36.04	10	7.14
36.08	13	7.13
36.12	11	7.12
36.16	11	7.12
36.2	11	7.11
36.24	11	7.1
36.28	11	7.09
36.32	2	7.08
36.36	7	7.08
36.4	9	7.07
36.44	17	7.06
36.48	5	7.05
36.52	10	7.04
36.56	14	7.04
36.6	8	7.03
36.64	11	7.02
36.68	12	7.01
36.72	12	7.01
36.76	10	7
36.8	3	6.99
36.84	10	6.98
36.88	10	6.98
36.92	11	6.97
36.96	9	6.96
37	13	6.95
37.04	12	6.95
37.08	6	6.94
37.12	15	6.93
37.16	8	6.93
37.2	6	6.92
37.24	21	6.91
37.28	14	6.9
37.32	18	6.9
37.36	20	6.89
37.4	27	6.88
37.44	36	6.88
37.48	48	6.87
37.52	93	6.86
37.56	94	6.86
37.6	111	6.85
37.64	132	6.84
37.68	153	6.84
37.72	170	6.83
37.76	135	6.82
37.8	145	6.82
37.84	128	6.81
37.88	109	6.81
37.92	63	6.8
37.96	54	6.79
38	37	6.79
38.04	20	6.78
38.08	16	6.78
38.12	17	6.77
38.16	16	6.76
38.2	12	6.76
38.24	14	6.75
38.28	10	6.75
38.32	6	6.74
38.36	12	6.74
38.4	11	6.73
38.44	8	6.72
38.48	11	6.72
38.52	11	6.71
38.56	12	6.71
38.6	15	6.7
38.64	12	6.7
38.68	16	6.69
38.72	9	6.69
38.76	5	6.68
38.8	9	6.68
38.84	10	6.67
38.88	14	6.67
38.92	7	6.66
38.96	11	6.66
39	13	6.66
39.04	11	6.65
39.08	10	6.65
39.12	15	6.64
39.16	13	6.64
39.2	15	6.63
39.24	13	6.63
39.28	12	6.63
39.32	15	6.62
39.36	15	6.62
39.4	14	6.62
39.44	13	6.61
39.48	12	6.61
39.52	9	6.6
39.56	14	6.6
39.6	10	6.6
39.64	12	6.59
39.68	4	6.59
39.72	6	6.59
39.76	12	6.59
39.8	15	6.58
39.84	6	6.58
39.88	8	6.58
39.92	6	6.57
39.96	10	6.57
40	8	6.57
40.04	14	6.57
40.08	11	6.56
40.12	9	6.56
40.16	12	6.56
40.2	6	6.56
40.24	13	6.55
40.28	8	6.55
40.32	6	6.55
40.36	15	6.55
40.4	7	6.55
40.44	14	6.54
40.48	7	6.54
40.52	9	6.54
40.56	4	6.54
40.6	2	6.54
40.64	8	6.54
40.68	8	6.54
40.72	7	6.53
40.76	5	6.53
40.8	11	6.53
40.84	6	6.53
40.88	8	6.53
40.92	11	6.53
40.96	6	6.53
41	13	6.53
41.04	15	6.53
41.08	13	6.53
41.12	8	6.53
41.16	10	6.53
41.2	11	6.53
41.24	14	6.53
41.28	11	6.53
41.32	9	6.53
41.36	8	6.53
41.4	8	6.53
41.44	10	6.53
41.48	11	6.53
41.52	9	6.53
41.56	16	6.53
41.6	11	6.53
41.64	6	6.53
41.68	6	6.53
41.72	9	6.53
41.76	10	6.53
41.8	9	6.53
41.84	9	6.53
41.88	8	6.53
41.92	10	6.53
41.96	4	6.53
42	16	6.54
42.04	13	6.54
42.08	12	6.54
42.12	7	6.54
42.16	9	6.54
42.2	7	6.54
42.24	10	6.54
42.28	10	6.55
42.32	8	6.55
42.36	14	6.55
42.4	8	6.55
42.44	9	6.55
42.48	10	6.56
42.52	9	6.56
42.56	11	6.56
42.6	6	6.56
42.64	11	6.57
42.68	12	6.57
42.72	11	6.57
42.76	12	6.57
42.8	8	6.58
42.84	13	6.58
42.88	9	6.58
42.92	11	6.58
42.96	12	6.59
43	10	6.59
43.04	9	6.59
43.08	10	6.6
43.12	10	6.6
43.16	10	6.6
43.2	5	6.61
43.24	7	6.61
43.28	9	6.61
43.32	15	6.62
43.36	19	6.62
43.4	14	6.62
43.44	11	6.63
43.48	20	6.63
43.52	23	6.63
43.56	42	6.64
43.6	54	6.64
43.64	89	6.65
43.68	132	6.65
43.72	173	6.65
43.76	122	6.66
43.8	123	6.66
43.84	94	6.67
43.88	70	6.67
43.92	57	6.67
43.96	44	6.68
44	42	6.68
44.04	40	6.69
44.08	51	6.69
44.12	49	6.7
44.16	50	6.7
44.2	51	6.71
44.24	31	6.71
44.28	21	6.71
44.32	18	6.72
44.36	13	6.72
44.4	8	6.73
44.44	14	6.73
44.48	6	6.74
44.52	8	6.74
44.56	13	6.75
44.6	13	6.75
44.64	12	6.76
44.68	12	6.76
44.72	16	6.77
44.76	9	6.77
44.8	10	6.78
44.84	8	6.78
44.88	7	6.79
44.92	7	6.79
44.96	7	6.8
45	9	6.8